Folder: lolita/applications/micromorphic_damage_tensile_rod

Note: applications/micromorphic_damage_tensile_rod/out_damage_dissipated_energy.txt
0, 0, 0.0000000000e+00
1, 6.0000000000e-03, 1.2950544056e-07
2, 1.2000000000e-02, 2.0676202090e-06
3, 1.8000000000e-02, 1.0429800509e-05
4, 2.4000000000e-02, 3.2798344213e-05
5, 3.0000000000e-02, 7.9560658965e-05
6, 3.6000000000e-02, 1.6368960953e-04
7, 4.2000000000e-02, 3.0047237155e-04
8, 4.8000000000e-02, 5.0719558522e-04
9, 5.4000000000e-02, 8.0279565330e-04
10, 6.0000000000e-02, 1.2074837318e-03
11, 6.6000000000e-02, 1.7423553050e-03
12, 7.2000000000e-02, 2.4289942224e-03
13, 7.8000000000e-02, 3.2890807279e-03
14, 8.4000000000e-02, 4.3440123615e-03
15, 9.0000000000e-02, 5.6145457159e-03
16, 9.6000000000e-02, 7.1204659281e-03
17, 1.0200000000e-01, 8.8802895545e-03
18, 1.0800000000e-01, 1.0911005158e-02
19, 1.1400000000e-01, 1.3227854599e-02
20, 1.2000000000e-01, 1.5844156724e-02
21, 1.2600000000e-01, 1.8771173900e-02
22, 1.3200000000e-01, 2.2018020740e-02
23, 1.3800000000e-01, 2.5591613377e-02
24, 1.4400000000e-01, 2.9496656821e-02
25, 1.5000000000e-01, 3.3735667286e-02
26, 1.5600000000e-01, 3.8309025863e-02
27, 1.6200000000e-01, 4.3215059622e-02
28, 1.6800000000e-01, 4.8450146005e-02
29, 1.7400000000e-01, 5.4008836365e-02
30, 1.8000000000e-01, 5.9883994544e-02
31, 1.8600000000e-01, 6.6066946595e-02
32, 1.9200000000e-01, 7.2547637948e-02
33, 1.9800000000e-01, 7.9314794677e-02
34, 2.0400000000e-01, 8.6356085818e-02
35, 2.1000000000e-01, 9.3658284110e-02
36, 2.1600000000e-01, 1.0120742286e-01
37, 2.2200000000e-01, 1.0898894705e-01
38, 2.2800000000e-01, 1.1698785709e-01
39, 2.3400000000e-01, 1.2518884415e-01
40, 2.4000000000e-01, 1.3357641604e-01
41, 2.4600000000e-01, 1.4213501325e-01
42, 2.5200000000e-01, 1.5084911486e-01
43, 2.5800000000e-01, 2.0799966404e-01
44, 2.6400000000e-01, 2.0800136922e-01
45, 2.7000000000e-01, 2.0800296198e-01
46, 2.7600000000e-01, 2.0800445199e-01
47, 2.8200000000e-01, 2.0800584790e-01
48, 2.8800000000e-01, 2.0800715588e-01
49, 2.9400000000e-01, 2.0800838768e-01
50, 3.0000000000e-01, 2.0800954352e-01

Note: applications/micromorphic_damage_tensile_rod/out_force.txt
0, 0, 0.0000000000e+00
1, 6.0000000000e-03, -1.1991316600e-01
2, 1.2000000000e-02, -2.3930933403e-01
3, 1.8000000000e-02, -3.5767706734e-01
4, 2.4000000000e-02, -4.7451594017e-01
5, 3.0000000000e-02, -5.8934176848e-01
6, 3.6000000000e-02, -7.0169152067e-01
7, 4.2000000000e-02, -8.1112781763e-01
8, 4.8000000000e-02, -9.1724294390e-01
9, 5.4000000000e-02, -1.0196623068e+00
10, 6.0000000000e-02, -1.1180472963e+00
11, 6.6000000000e-02, -1.2120975148e+00
12, 7.2000000000e-02, -1.3015523644e+00
13, 7.8000000000e-02, -1.3861919937e+00
14, 8.4000000000e-02, -1.4658376233e+00
15, 9.0000000000e-02, -1.5403512807e+00
16, 9.6000000000e-02, -1.6096349896e+00
17, 1.0200000000e-01, -1.6736294654e+00
18, 1.0800000000e-01, -1.7323123778e+00
19, 1.1400000000e-01, -1.7856962451e+00
20, 1.2000000000e-01, -1.8338260270e+00
21, 1.2600000000e-01, -1.8767764848e+00
22, 1.3200000000e-01, -1.9146493739e+00
23, 1.3800000000e-01, -1.9475705316e+00
24, 1.4400000000e-01, -1.9756869198e+00
25, 1.5000000000e-01, -1.9991636737e+00
26, 1.5600000000e-01, -2.0181812050e+00
27, 1.6200000000e-01, -2.0329323990e+00
28, 1.6800000000e-01, -2.0436199386e+00
29, 1.7400000000e-01, -2.0504537830e+00
30, 1.8000000000e-01, -2.0536488211e+00
31, 1.8600000000e-01, -2.0534227139e+00
32, 1.9200000000e-01, -2.0499939352e+00
33, 1.9800000000e-01, -2.0435800142e+00
34, 2.0400000000e-01, -2.0343959812e+00
35, 2.1000000000e-01, -2.0226530111e+00
36, 2.1600000000e-01, -2.0085572586e+00
37, 2.2200000000e-01, -1.9923088771e+00
38, 2.2800000000e-01, -1.9741012088e+00
39, 2.3400000000e-01, -1.9541201347e+00
40, 2.4000000000e-01, -1.9325435704e+00
41, 2.4600000000e-01, -1.9095410939e+00
42, 2.5200000000e-01, -1.8852736866e+00
43, 2.5800000000e-01, -2.7163125420e-03
44, 2.6400000000e-01, -2.7662625698e-03
45, 2.7000000000e-01, -2.8170619016e-03
46, 2.7600000000e-01, -2.8686228205e-03
47, 2.8200000000e-01, -2.9208659925e-03
48, 2.8800000000e-01, -2.9737330751e-03
49, 2.9400000000e-01, -3.0271289786e-03
50, 3.0000000000e-01, -3.0810423261e-03

File: out_displacement_dissipated_energy.txt
0, 0, 0.0000000000e+00
1, 0.006, 0.0000000000e+00
2, 0.012, 0.0000000000e+00
3, 0.018, 0.0000000000e+00
4, 0.024, 0.0000000000e+00
5, 0.03, 0.0000000000e+00
6, 0.036, 0.0000000000e+00
7, 0.042, 0.0000000000e+00
8, 0.048, 0.0000000000e+00
9, 0.054, 0.0000000000e+00
10, 0.06, 0.0000000000e+00
11, 0.066, 0.0000000000e+00
12, 0.072, 0.0000000000e+00
13, 0.078, 0.0000000000e+00
14, 0.084, 0.0000000000e+00
15, 0.09, 0.0000000000e+00
16, 0.096, 0.0000000000e+00
17, 0.102, 0.0000000000e+00
18, 0.108, 0.0000000000e+00
19, 0.114, 0.0000000000e+00
20, 0.12, 0.0000000000e+00
21, 0.126, 0.0000000000e+00
22, 0.132, 0.0000000000e+00
23, 0.138, 0.0000000000e+00
24, 0.144, 0.0000000000e+00
25, 0.15, 0.0000000000e+00
26, 0.156, 0.0000000000e+00
27, 0.162, 0.0000000000e+00
28, 0.168, 0.0000000000e+00
29, 0.174, 0.0000000000e+00
30, 0.18, 0.0000000000e+00
31, 0.186, 0.0000000000e+00
32, 0.192, 0.0000000000e+00
33, 0.198, 0.0000000000e+00
34, 0.204, 0.0000000000e+00
35, 0.21, 0.0000000000e+00
36, 0.216, 0.0000000000e+00
37, 0.222, 0.0000000000e+00
38, 0.228, 0.0000000000e+00
39, 0.234, 0.0000000000e+00
40, 0.24, 0.0000000000e+00
41, 0.246, 0.0000000000e+00
42, 0.252, 0.0000000000e+00
43, 0.258, 0.0000000000e+00
44, 0.264, 0.0000000000e+00
45, 0.27, 0.0000000000e+00
46, 0.276, 0.0000000000e+00
47, 0.282, 0.0000000000e+00
48, 0.288, 0.0000000000e+00
49, 0.294, 0.0000000000e+00
50, 0.3, 0.0000000000e+00

File: out_displacement_stored_energy.txt
0, 0, 0.0000000000e+00
1, 0.006, 0.000359739
2, 0.012, 0.00143586
3, 0.018, 0.00321909
4, 0.024, 0.00569419
5, 0.03, 0.00884013
6, 0.036, 0.0126304
7, 0.042, 0.0170337
8, 0.048, 0.0220138
9, 0.054, 0.0275309
10, 0.06, 0.0335414
11, 0.066, 0.0399992
12, 0.072, 0.0468559
13, 0.078, 0.0540615
14, 0.084, 0.0615652
15, 0.09, 0.0693158
16, 0.096, 0.0772625
17, 0.102, 0.0853551
18, 0.108, 0.0935449
19, 0.114, 0.101785
20, 0.12, 0.11003
21, 0.126, 0.118237
22, 0.132, 0.126367
23, 0.138, 0.134382
24, 0.144, 0.142249
25, 0.15, 0.149937
26, 0.156, 0.157418
27, 0.162, 0.164668
28, 0.168, 0.171664
29, 0.174, 0.178389
30, 0.18, 0.184828
31, 0.186, 0.190968
32, 0.192, 0.196799
33, 0.198, 0.202314
34, 0.204, 0.207508
35, 0.21, 0.212379
36, 0.216, 0.216924
37, 0.222, 0.221146
38, 0.228, 0.225048
39, 0.234, 0.228632
40, 0.24, 0.231905
41, 0.246, 0.234874
42, 0.252, 0.237544
43, 0.258, 0.000350404
44, 0.264, 0.000365146
45, 0.27, 0.000380303
46, 0.276, 0.00039587
47, 0.282, 0.000411842
48, 0.288, 0.000428217
49, 0.294, 0.000444988
50, 0.3, 0.000462156